<Bundle xmlns="http://hl7.org/fhir">
  <type value="searchset" />
  <total value="16" />
  <entry>
    <resource>
      <MedicationStatement>
        <id value="93e9cda3-bac7-401a-9f42-de871f27df70" />
        <meta>
          <profile value="http://helse-nord.no/FHIR/profiles/Diagnostics.MedicationStatement/MedicationStatement" />
        </meta>
        <contained>
          <Medication>
            <id value="0521b6af-5900-4e6a-8c3f-abf7b12269dd" />
            <meta>
              <profile value="http://helse-nord.no/FHIR/profiles/Diagnostics.MedicationStatement/Medication" />
            </meta>
            <code>
              <coding>
                <system value="http://hl7.no/FHIR/Identifiers/FEST-identifikatorer" />
                <code value="ID_8530F680-F918-4575-BCB1-5493E2DFE9F5" />
                <display value="Aclasta Inf væske 5 mg/100 ml" />
              </coding>
              <coding>
                <system value="http://www.whocc.no/atc_ddd_index/" />
                <code value="M05BA08" />
              </coding>
            </code>
            <manufacturer>
              <display value="Novartis Europharm Limited" />
            </manufacturer>
          </Medication>
        </contained>
        <extension url="http://helse-nord.no/FHIR/profiles/Extension.MedicationStatementDrugUse">
          <valueCoding>
            <system value="2.16.578.1.12.4.1.1.9101" />
            <code value="2" />
            <display value="Kur" />
          </valueCoding>
        </extension>
        <identifier>
          <system value="http://hl7.no/FHIR/Identifiers/ExternalIdentifier" />
          <value value="76e072ff-eaae-4e60-81a4-d7e06262f969" />
        </identifier>
        <status value="active" />
        <medicationReference>
          <reference value="#0521b6af-5900-4e6a-8c3f-abf7b12269dd" />
        </medicationReference>
        <effectivePeriod>
          <start value="0001-01-01" />
          <end value="2016-04-07" />
        </effectivePeriod>
        <dateAsserted value="0001-01-01" />
        <subject>
          <reference value="Patient/12057900499" />
        </subject>
        <taken value="na" />
        <reasonCode>
          <text value="OSTEOPOROSEFOREBYGGING" />
        </reasonCode>
        <dosage>
          <text value="Anonymisert" />
        </dosage>
      </MedicationStatement>
    </resource>
  </entry>
  <entry>
    <resource>
      <MedicationStatement>
        <id value="436b2ec2-0dfe-487c-b04a-653a7c945152" />
        <meta>
          <profile value="http://helse-nord.no/FHIR/profiles/Diagnostics.MedicationStatement/MedicationStatement" />
        </meta>
        <contained>
          <Medication>
            <id value="d2641620-5a95-4dd9-b919-d63199e95af1" />
            <meta>
              <profile value="http://helse-nord.no/FHIR/profiles/Diagnostics.MedicationStatement/Medication" />
            </meta>
            <code>
              <coding>
                <system value="http://hl7.no/FHIR/Identifiers/FEST-identifikatorer" />
                <code value="ID_4E01DE35-02DF-4CC1-AEA2-9C6934766C0A" />
                <display value="Aranesp Inj væske 20 mikrog/0,5 ml" />
              </coding>
              <coding>
                <system value="http://www.whocc.no/atc_ddd_index/" />
                <code value="B03XA02" />
              </coding>
            </code>
            <manufacturer>
              <display value="Amgen Europe B.V." />
            </manufacturer>
          </Medication>
        </contained>
        <extension url="http://helse-nord.no/FHIR/profiles/Extension.MedicationStatementDrugUse">
          <valueCoding>
            <system value="2.16.578.1.12.4.1.1.9101" />
            <code value="1" />
            <display value="Fast" />
          </valueCoding>
        </extension>
        <identifier>
          <system value="http://hl7.no/FHIR/Identifiers/ExternalIdentifier" />
          <value value="43cefc38-cbf4-4410-b592-99f588501187" />
        </identifier>
        <status value="active" />
        <medicationReference>
          <reference value="#d2641620-5a95-4dd9-b919-d63199e95af1" />
        </medicationReference>
        <effectivePeriod>
          <start value="0001-01-01" />
        </effectivePeriod>
        <dateAsserted value="0001-01-01" />
        <subject>
          <reference value="Patient/12057900499" />
        </subject>
        <taken value="na" />
        <note>
          <text value="Anonymisert" />
        </note>
        <dosage>
          <text value="Anonymisert" />
        </dosage>
      </MedicationStatement>
    </resource>
  </entry>
  <entry>
    <resource>
      <MedicationStatement>
        <id value="19cfd730-3c1d-4725-b825-7d4903fc5dcb" />
        <meta>
          <profile value="http://helse-nord.no/FHIR/profiles/Diagnostics.MedicationStatement/MedicationStatement" />
        </meta>
        <contained>
          <Medication>
            <id value="41f94994-e778-4e64-b6b6-f50513db7ec4" />
            <meta>
              <profile value="http://helse-nord.no/FHIR/profiles/Diagnostics.MedicationStatement/Medication" />
            </meta>
            <code>
              <coding>
                <system value="http://hl7.no/FHIR/Identifiers/FEST-identifikatorer" />
                <code value="ID_FD9EDD1B-443D-4D92-99CB-82C2265C755B" />
                <display value="Bactrim Tab 80 mg/400 mg" />
              </coding>
              <coding>
                <system value="http://www.whocc.no/atc_ddd_index/" />
                <code value="J01EE01, J01EA01, J01EC01" />
              </coding>
            </code>
            <manufacturer>
              <display value="F. Hoffmann-La Roche AG" />
            </manufacturer>
          </Medication>
        </contained>
        <extension url="http://helse-nord.no/FHIR/profiles/Extension.MedicationStatementDrugUse">
          <valueCoding>
            <system value="2.16.578.1.12.4.1.1.9101" />
            <code value="2" />
            <display value="Kur" />
          </valueCoding>
        </extension>
        <identifier>
          <system value="http://hl7.no/FHIR/Identifiers/ExternalIdentifier" />
          <value value="60e2c44b-f887-4395-acd5-164aaf3e3105" />
        </identifier>
        <status value="active" />
        <medicationReference>
          <reference value="#41f94994-e778-4e64-b6b6-f50513db7ec4" />
        </medicationReference>
        <effectivePeriod>
          <start value="0001-01-01" />
        </effectivePeriod>
        <dateAsserted value="0001-01-01" />
        <subject>
          <reference value="Patient/12057900499" />
        </subject>
        <taken value="na" />
        <reasonCode>
          <text value="MOT BLÆREKATARR" />
        </reasonCode>
        <dosage>
          <text value="Anonymisert" />
        </dosage>
      </MedicationStatement>
    </resource>
  </entry>
  <entry>
    <resource>
      <MedicationStatement>
        <id value="5d9eb677-3218-4ddf-952e-e9056b53c8ce" />
        <meta>
          <profile value="http://helse-nord.no/FHIR/profiles/Diagnostics.MedicationStatement/MedicationStatement" />
        </meta>
        <contained>
          <Medication>
            <id value="3e643904-0394-4dd3-b887-b01602af17a9" />
            <meta>
              <profile value="http://helse-nord.no/FHIR/profiles/Diagnostics.MedicationStatement/Medication" />
            </meta>
            <code>
              <coding>
                <system value="http://hl7.no/FHIR/Identifiers/FEST-identifikatorer" />
                <code value="ID_6BCFFE2F-2655-4F1B-A16C-82BF22C33D77" />
                <display value="Elvanse Kaps 30 mg" />
              </coding>
              <coding>
                <system value="http://www.whocc.no/atc_ddd_index/" />
                <code value="N06BA12" />
              </coding>
            </code>
            <manufacturer>
              <display value="Shire Pharmaceutical Contracts Ltd" />
            </manufacturer>
          </Medication>
        </contained>
        <extension url="http://helse-nord.no/FHIR/profiles/Extension.MedicationStatementDrugUse">
          <valueCoding>
            <system value="2.16.578.1.12.4.1.1.9101" />
            <code value="1" />
            <display value="Fast" />
          </valueCoding>
        </extension>
        <identifier>
          <system value="http://hl7.no/FHIR/Identifiers/ExternalIdentifier" />
          <value value="95a68f8e-4b9f-405a-9fc7-a303fb4334ad" />
        </identifier>
        <status value="active" />
        <medicationReference>
          <reference value="#3e643904-0394-4dd3-b887-b01602af17a9" />
        </medicationReference>
        <effectivePeriod>
          <start value="0001-01-01" />
        </effectivePeriod>
        <dateAsserted value="0001-01-01" />
        <subject>
          <reference value="Patient/12057900499" />
        </subject>
        <taken value="na" />
        <dosage>
          <text value="Anonymisert" />
        </dosage>
      </MedicationStatement>
    </resource>
  </entry>
  <entry>
    <resource>
      <MedicationStatement>
        <id value="4ecd2b3e-4761-433f-aa6b-b0176fa126f2" />
        <meta>
          <profile value="http://helse-nord.no/FHIR/profiles/Diagnostics.MedicationStatement/MedicationStatement" />
        </meta>
        <contained>
          <Medication>
            <id value="4a2a0777-90c7-46bf-a2ae-0ade1423b5b3" />
            <meta>
              <profile value="http://helse-nord.no/FHIR/profiles/Diagnostics.MedicationStatement/Medication" />
            </meta>
            <code>
              <coding>
                <system value="http://hl7.no/FHIR/Identifiers/FEST-identifikatorer" />
                <code value="ID_366C8029-7F24-46E0-90B0-DD102079C667" />
                <display value="Nexium Enterotab 40 mg" />
              </coding>
              <coding>
                <system value="http://www.whocc.no/atc_ddd_index/" />
                <code value="A02BC05" />
              </coding>
            </code>
            <manufacturer>
              <display value="AstraZeneca" />
            </manufacturer>
          </Medication>
        </contained>
        <extension url="http://helse-nord.no/FHIR/profiles/Extension.MedicationStatementDrugUse">
          <valueCoding>
            <system value="2.16.578.1.12.4.1.1.9101" />
            <code value="3" />
            <display value="Ved behov" />
          </valueCoding>
        </extension>
        <identifier>
          <system value="http://hl7.no/FHIR/Identifiers/ExternalIdentifier" />
          <value value="7ffbec94-3b8f-4e29-93bb-c498698bcdc5" />
        </identifier>
        <status value="active" />
        <medicationReference>
          <reference value="#4a2a0777-90c7-46bf-a2ae-0ade1423b5b3" />
        </medicationReference>
        <effectivePeriod>
          <start value="0001-01-01" />
        </effectivePeriod>
        <dateAsserted value="0001-01-01" />
        <subject>
          <reference value="Patient/12057900499" />
        </subject>
        <taken value="na" />
        <reasonCode>
          <text value="MOT REFLUKSØSOFAGITT" />
        </reasonCode>
        <note>
          <text value="Anonymisert" />
        </note>
        <dosage>
          <text value="Anonymisert" />
        </dosage>
      </MedicationStatement>
    </resource>
  </entry>
  <entry>
    <resource>
      <MedicationStatement>
        <id value="6015c43b-a54a-44b8-9796-d31f2f9cf3e5" />
        <meta>
          <profile value="http://helse-nord.no/FHIR/profiles/Diagnostics.MedicationStatement/MedicationStatement" />
        </meta>
        <contained>
          <Medication>
            <id value="d9623a22-55b0-4a4f-8dd2-bf094b2b7068" />
            <meta>
              <profile value="http://helse-nord.no/FHIR/profiles/Diagnostics.MedicationStatement/Medication" />
            </meta>
            <code>
              <coding>
                <system value="http://hl7.no/FHIR/Identifiers/FEST-identifikatorer" />
                <code value="ID_F52D6F10-4CBA-4D44-B314-60734F9B2EAA" />
                <display value="Citalopram Tab 10 mg" />
              </coding>
              <coding>
                <system value="http://www.whocc.no/atc_ddd_index/" />
                <code value="N06AB04" />
              </coding>
            </code>
            <manufacturer />
          </Medication>
        </contained>
        <extension url="http://helse-nord.no/FHIR/profiles/Extension.MedicationStatementDrugUse">
          <valueCoding>
            <system value="2.16.578.1.12.4.1.1.9101" />
            <code value="1" />
            <display value="Fast" />
          </valueCoding>
        </extension>
        <identifier>
          <system value="http://hl7.no/FHIR/Identifiers/ExternalIdentifier" />
          <value value="2f663de1-502c-452b-975a-cda0b34611bf" />
        </identifier>
        <status value="active" />
        <medicationReference>
          <reference value="#d9623a22-55b0-4a4f-8dd2-bf094b2b7068" />
        </medicationReference>
        <effectivePeriod>
          <start value="0001-01-01" />
        </effectivePeriod>
        <dateAsserted value="0001-01-01" />
        <subject>
          <reference value="Patient/12057900499" />
        </subject>
        <taken value="na" />
        <dosage>
          <text value="Anonymisert" />
        </dosage>
      </MedicationStatement>
    </resource>
  </entry>
  <entry>
    <resource>
      <MedicationStatement>
        <id value="3c7b6886-989b-4c06-a981-88073c5bbb6c" />
        <meta>
          <profile value="http://helse-nord.no/FHIR/profiles/Diagnostics.MedicationStatement/MedicationStatement" />
        </meta>
        <contained>
          <Medication>
            <id value="6cb491d0-5b9f-497e-89d2-5a5dbd3f3967" />
            <meta>
              <profile value="http://helse-nord.no/FHIR/profiles/Diagnostics.MedicationStatement/Medication" />
            </meta>
            <code>
              <coding>
                <system value="http://hl7.no/FHIR/Identifiers/FEST-identifikatorer" />
                <code value="ID_0D7206C8-1C9E-4033-8C03-7F360E49AA5F" />
                <display value="OxyContin DEPOTtab 15 mg" />
              </coding>
              <coding>
                <system value="http://www.whocc.no/atc_ddd_index/" />
                <code value="N02AA05" />
              </coding>
            </code>
            <manufacturer>
              <display value="Mundipharma AS" />
            </manufacturer>
          </Medication>
        </contained>
        <extension url="http://helse-nord.no/FHIR/profiles/Extension.MedicationStatementDrugUse">
          <valueCoding>
            <system value="2.16.578.1.12.4.1.1.9101" />
            <code value="3" />
            <display value="Ved behov" />
          </valueCoding>
        </extension>
        <identifier>
          <system value="http://hl7.no/FHIR/Identifiers/ExternalIdentifier" />
          <value value="e0404051-a1f6-4acf-9746-7a2026b44c6e" />
        </identifier>
        <status value="active" />
        <medicationReference>
          <reference value="#6cb491d0-5b9f-497e-89d2-5a5dbd3f3967" />
        </medicationReference>
        <effectivePeriod>
          <start value="0001-01-01" />
        </effectivePeriod>
        <dateAsserted value="0001-01-01" />
        <subject>
          <reference value="Patient/12057900499" />
        </subject>
        <taken value="na" />
        <reasonCode>
          <text value="MOT STERKE SMERTER" />
        </reasonCode>
        <note>
          <text value="Test for å se om det kun er nye oppføringer som funker med GetLastVerifiedRML. 23.03.2017." />
        </note>
        <dosage>
          <text value="1 tablett hver 12. time" />
        </dosage>
      </MedicationStatement>
    </resource>
  </entry>
  <entry>
    <resource>
      <MedicationStatement>
        <id value="8b15d68d-6910-4f06-a71d-2c95f61fd188" />
        <meta>
          <profile value="http://helse-nord.no/FHIR/profiles/Diagnostics.MedicationStatement/MedicationStatement" />
        </meta>
        <contained>
          <Medication>
            <id value="bb4cc5f1-354d-42c5-986b-8b6d263ed7b2" />
            <meta>
              <profile value="http://helse-nord.no/FHIR/profiles/Diagnostics.MedicationStatement/Medication" />
            </meta>
            <code>
              <coding>
                <system value="http://hl7.no/FHIR/Identifiers/FEST-identifikatorer" />
                <display value="pille fra gata 1 10E10 bakterier Brusegranulat" />
              </coding>
              <coding>
                <system value="http://www.whocc.no/atc_ddd_index/" />
                <code value="na" />
              </coding>
            </code>
            <manufacturer>
              <display value="gata" />
            </manufacturer>
          </Medication>
        </contained>
        <extension url="http://helse-nord.no/FHIR/profiles/Extension.MedicationStatementDrugUse">
          <valueCoding>
            <system value="2.16.578.1.12.4.1.1.9101" />
            <code value="1" />
            <display value="Fast" />
          </valueCoding>
        </extension>
        <identifier>
          <system value="http://hl7.no/FHIR/Identifiers/ExternalIdentifier" />
          <value value="8e71328d-c64a-4cc7-819e-d6681964eaea" />
        </identifier>
        <status value="active" />
        <medicationReference>
          <reference value="#bb4cc5f1-354d-42c5-986b-8b6d263ed7b2" />
        </medicationReference>
        <effectivePeriod>
          <start value="0001-01-01" />
        </effectivePeriod>
        <dateAsserted value="0001-01-01" />
        <subject>
          <reference value="Patient/12057900499" />
        </subject>
        <taken value="na" />
        <reasonCode>
          <text value="TEST" />
        </reasonCode>
        <note>
          <text value="test" />
        </note>
        <dosage>
          <text value="1 enhet morgen 1 enhet midt på dagen 1 enhet kveld" />
        </dosage>
      </MedicationStatement>
    </resource>
  </entry>
  <entry>
    <resource>
      <MedicationStatement>
        <id value="03db37b5-6f94-4651-9f71-c4b6c45270c2" />
        <meta>
          <profile value="http://helse-nord.no/FHIR/profiles/Diagnostics.MedicationStatement/MedicationStatement" />
        </meta>
        <contained>
          <Medication>
            <id value="ea35cf49-9dad-4d38-950b-88661bd1b7ad" />
            <meta>
              <profile value="http://helse-nord.no/FHIR/profiles/Diagnostics.MedicationStatement/Medication" />
            </meta>
            <code>
              <coding>
                <system value="http://hl7.no/FHIR/Identifiers/FEST-identifikatorer" />
                <display value="Sprudelvasser 12 % Dråper" />
              </coding>
              <coding>
                <system value="http://www.whocc.no/atc_ddd_index/" />
                <code value="V03AB16" />
              </coding>
            </code>
            <manufacturer>
              <display value="Cava" />
            </manufacturer>
          </Medication>
        </contained>
        <extension url="http://helse-nord.no/FHIR/profiles/Extension.MedicationStatementDrugUse">
          <valueCoding>
            <system value="2.16.578.1.12.4.1.1.9101" />
            <code value="2" />
            <display value="Kur" />
          </valueCoding>
        </extension>
        <identifier>
          <system value="http://hl7.no/FHIR/Identifiers/ExternalIdentifier" />
          <value value="4d27a18a-edb3-4550-90cd-dc25c5806915" />
        </identifier>
        <status value="active" />
        <medicationReference>
          <reference value="#ea35cf49-9dad-4d38-950b-88661bd1b7ad" />
        </medicationReference>
        <effectivePeriod>
          <start value="0001-01-01" />
        </effectivePeriod>
        <dateAsserted value="0001-01-01" />
        <subject>
          <reference value="Patient/12057900499" />
        </subject>
        <taken value="na" />
        <reasonCode>
          <text value="MOT SVINN" />
        </reasonCode>
        <note>
          <text value="hei" />
        </note>
        <dosage>
          <text value="1 enhet 3 ganger daglig" />
        </dosage>
      </MedicationStatement>
    </resource>
  </entry>
  <entry>
    <resource>
      <MedicationStatement>
        <id value="3911cc4d-f3e1-46f8-9e30-2b24ec65e803" />
        <meta>
          <profile value="http://helse-nord.no/FHIR/profiles/Diagnostics.MedicationStatement/MedicationStatement" />
        </meta>
        <contained>
          <Medication>
            <id value="1a024ee5-b8e2-4874-acb1-1a37f999a136" />
            <meta>
              <profile value="http://helse-nord.no/FHIR/profiles/Diagnostics.MedicationStatement/Medication" />
            </meta>
            <code>
              <coding>
                <system value="http://hl7.no/FHIR/Identifiers/FEST-identifikatorer" />
                <code value="ID_743825CB-7D34-40A5-949B-07DDC9C24371" />
                <display value="Furix Tab 20 mg" />
              </coding>
              <coding>
                <system value="http://www.whocc.no/atc_ddd_index/" />
                <code value="C03CA01" />
              </coding>
            </code>
            <manufacturer>
              <display value="Takeda AS" />
            </manufacturer>
          </Medication>
        </contained>
        <extension url="http://helse-nord.no/FHIR/profiles/Extension.MedicationStatementDrugUse">
          <valueCoding>
            <system value="2.16.578.1.12.4.1.1.9101" />
            <code value="1" />
            <display value="Fast" />
          </valueCoding>
        </extension>
        <identifier>
          <system value="http://hl7.no/FHIR/Identifiers/ExternalIdentifier" />
          <value value="f48b7b68-c771-493e-a402-fbae181d7dff" />
        </identifier>
        <status value="active" />
        <medicationReference>
          <reference value="#1a024ee5-b8e2-4874-acb1-1a37f999a136" />
        </medicationReference>
        <effectivePeriod>
          <start value="0001-01-01" />
        </effectivePeriod>
        <dateAsserted value="0001-01-01" />
        <subject>
          <reference value="Patient/12057900499" />
        </subject>
        <taken value="na" />
        <reasonCode>
          <text value="VANNDRIVENDE" />
        </reasonCode>
        <note>
          <text value="Her skal det stå furix tab 20 mg (furosemid) 100 stk (Boks) 1 tab x 2 vanndrivende, bruk=fast." />
        </note>
        <dosage>
          <text value="1 tablett 2 ganger daglig" />
        </dosage>
      </MedicationStatement>
    </resource>
  </entry>
  <entry>
    <resource>
      <MedicationStatement>
        <id value="1567661b-5511-470d-b10f-f79b24a573f6" />
        <meta>
          <profile value="http://helse-nord.no/FHIR/profiles/Diagnostics.MedicationStatement/MedicationStatement" />
        </meta>
        <contained>
          <Medication>
            <id value="3ed5c508-76c2-4bbf-a92f-735d9b32bceb" />
            <meta>
              <profile value="http://helse-nord.no/FHIR/profiles/Diagnostics.MedicationStatement/Medication" />
            </meta>
            <code>
              <coding>
                <system value="http://hl7.no/FHIR/Identifiers/FEST-identifikatorer" />
                <code value="ID_9CEBF598-FA18-4FB8-8507-D081711CF4B7" />
                <display value="Terra-Cortril Polymyxin B Øredr 5 mg/ml/15 mg/ml/10000 IE/ml" />
              </coding>
              <coding>
                <system value="http://www.whocc.no/atc_ddd_index/" />
                <code value="S03CA04, S01AA04, S02BA01" />
              </coding>
            </code>
            <manufacturer>
              <display value="Pfizer AS" />
            </manufacturer>
          </Medication>
        </contained>
        <extension url="http://helse-nord.no/FHIR/profiles/Extension.MedicationStatementDrugUse">
          <valueCoding>
            <system value="2.16.578.1.12.4.1.1.9101" />
            <code value="1" />
            <display value="Fast" />
          </valueCoding>
        </extension>
        <identifier>
          <system value="http://hl7.no/FHIR/Identifiers/ExternalIdentifier" />
          <value value="6318a7f4-db15-4e9c-bf4e-8b92de30bc39" />
        </identifier>
        <status value="active" />
        <medicationReference>
          <reference value="#3ed5c508-76c2-4bbf-a92f-735d9b32bceb" />
        </medicationReference>
        <effectivePeriod>
          <start value="0001-01-01" />
        </effectivePeriod>
        <dateAsserted value="0001-01-01" />
        <subject>
          <reference value="Patient/12057900499" />
        </subject>
        <taken value="na" />
        <dosage>
          <text value="Anonymisert" />
        </dosage>
      </MedicationStatement>
    </resource>
  </entry>
  <entry>
    <resource>
      <MedicationStatement>
        <id value="d4b6bfab-7a25-4d1f-84ba-19024323c38b" />
        <meta>
          <profile value="http://helse-nord.no/FHIR/profiles/Diagnostics.MedicationStatement/MedicationStatement" />
        </meta>
        <contained>
          <Medication>
            <id value="424a977e-d576-4b2d-a0a7-04bcd5baa590" />
            <meta>
              <profile value="http://helse-nord.no/FHIR/profiles/Diagnostics.MedicationStatement/Medication" />
            </meta>
            <code>
              <coding>
                <system value="http://hl7.no/FHIR/Identifiers/FEST-identifikatorer" />
                <code value="ID_F12645DD-FD17-4B89-9A25-0AF1E6CCB60D" />
                <display value="Somac Enterotab 40 mg" />
              </coding>
              <coding>
                <system value="http://www.whocc.no/atc_ddd_index/" />
                <code value="A02BC02" />
              </coding>
            </code>
            <manufacturer>
              <display value="Takeda Nycomed AS" />
            </manufacturer>
          </Medication>
        </contained>
        <extension url="http://helse-nord.no/FHIR/profiles/Extension.MedicationStatementDrugUse">
          <valueCoding>
            <system value="2.16.578.1.12.4.1.1.9101" />
            <code value="1" />
            <display value="Fast" />
          </valueCoding>
        </extension>
        <identifier>
          <system value="http://hl7.no/FHIR/Identifiers/ExternalIdentifier" />
          <value value="e3fbff86-e0b7-4cba-a35e-a9c6c53a822e" />
        </identifier>
        <status value="active" />
        <medicationReference>
          <reference value="#424a977e-d576-4b2d-a0a7-04bcd5baa590" />
        </medicationReference>
        <effectivePeriod>
          <start value="0001-01-01" />
        </effectivePeriod>
        <dateAsserted value="0001-01-01" />
        <subject>
          <reference value="Patient/12057900499" />
        </subject>
        <taken value="na" />
        <reasonCode>
          <text value="MOT DUODENALSÅR" />
        </reasonCode>
        <dosage>
          <text value="Anonymisert" />
        </dosage>
      </MedicationStatement>
    </resource>
  </entry>
  <entry>
    <resource>
      <MedicationStatement>
        <id value="cd046ab1-7cc8-4d9a-87d4-836c122b6e3d" />
        <meta>
          <profile value="http://helse-nord.no/FHIR/profiles/Diagnostics.MedicationStatement/MedicationStatement" />
        </meta>
        <contained>
          <Medication>
            <id value="722ec9b3-d0fe-472b-ab12-3f117071bf99" />
            <meta>
              <profile value="http://helse-nord.no/FHIR/profiles/Diagnostics.MedicationStatement/Medication" />
            </meta>
            <code>
              <coding>
                <system value="http://hl7.no/FHIR/Identifiers/FEST-identifikatorer" />
                <code value="ID_3D203556-B5F9-40C7-AFAA-542BFE6A6F15" />
                <display value="Doksycyklin Hexal Tab 100 mg" />
              </coding>
              <coding>
                <system value="http://www.whocc.no/atc_ddd_index/" />
                <code value="J01AA02" />
              </coding>
            </code>
            <manufacturer>
              <display value="Hexal A/S" />
            </manufacturer>
          </Medication>
        </contained>
        <extension url="http://helse-nord.no/FHIR/profiles/Extension.MedicationStatementDrugUse">
          <valueCoding>
            <system value="2.16.578.1.12.4.1.1.9101" />
            <code value="1" />
            <display value="Fast" />
          </valueCoding>
        </extension>
        <identifier>
          <system value="http://hl7.no/FHIR/Identifiers/ExternalIdentifier" />
          <value value="8d353e15-d2d4-47b8-acd4-d081a8a2b0d7" />
        </identifier>
        <status value="active" />
        <medicationReference>
          <reference value="#722ec9b3-d0fe-472b-ab12-3f117071bf99" />
        </medicationReference>
        <effectivePeriod>
          <start value="0001-01-01" />
        </effectivePeriod>
        <dateAsserted value="0001-01-01" />
        <subject>
          <reference value="Patient/12057900499" />
        </subject>
        <taken value="na" />
        <dosage>
          <text value="Anonymisert" />
        </dosage>
      </MedicationStatement>
    </resource>
  </entry>
  <entry>
    <resource>
      <MedicationStatement>
        <id value="bac51fa7-ece9-4b23-97c7-2d321dc6f25f" />
        <meta>
          <profile value="http://helse-nord.no/FHIR/profiles/Diagnostics.MedicationStatement/MedicationStatement" />
        </meta>
        <contained>
          <Medication>
            <id value="ad890d11-64b6-4792-b6f8-3bc7dc4dc106" />
            <meta>
              <profile value="http://helse-nord.no/FHIR/profiles/Diagnostics.MedicationStatement/Medication" />
            </meta>
            <code>
              <coding>
                <system value="http://hl7.no/FHIR/Identifiers/FEST-identifikatorer" />
                <code value="ID_9A1ED6F2-FDF2-4F0B-9596-EAE449BC12C5" />
                <display value="Digimerck Tab 0,1 mg" />
              </coding>
              <coding>
                <system value="http://www.whocc.no/atc_ddd_index/" />
                <code value="C01AA04" />
              </coding>
            </code>
            <manufacturer>
              <display value="Alliance Healthcare Norge" />
            </manufacturer>
          </Medication>
        </contained>
        <extension url="http://helse-nord.no/FHIR/profiles/Extension.MedicationStatementDrugUse">
          <valueCoding>
            <system value="2.16.578.1.12.4.1.1.9101" />
            <code value="1" />
            <display value="Fast" />
          </valueCoding>
        </extension>
        <identifier>
          <system value="http://hl7.no/FHIR/Identifiers/ExternalIdentifier" />
          <value value="eed13181-4270-4462-bb1f-150853f86f2a" />
        </identifier>
        <status value="active" />
        <medicationReference>
          <reference value="#ad890d11-64b6-4792-b6f8-3bc7dc4dc106" />
        </medicationReference>
        <effectivePeriod>
          <start value="0001-01-01" />
        </effectivePeriod>
        <dateAsserted value="0001-01-01" />
        <subject>
          <reference value="Patient/12057900499" />
        </subject>
        <taken value="na" />
        <dosage>
          <text value="Anonymisert" />
        </dosage>
      </MedicationStatement>
    </resource>
  </entry>
  <entry>
    <resource>
      <MedicationStatement>
        <id value="9cfb9ac4-796f-4c4d-a671-248f55684354" />
        <meta>
          <profile value="http://helse-nord.no/FHIR/profiles/Diagnostics.MedicationStatement/MedicationStatement" />
        </meta>
        <contained>
          <Medication>
            <id value="73172651-d9c6-4020-bd08-72fabac82008" />
            <meta>
              <profile value="http://helse-nord.no/FHIR/profiles/Diagnostics.MedicationStatement/Medication" />
            </meta>
            <code>
              <coding>
                <system value="http://hl7.no/FHIR/Identifiers/FEST-identifikatorer" />
                <code value="ID_6C2B7388-66BB-4833-BED2-F0C3C96B353B" />
                <display value="Loette 28 Tab 100 mikrog/20 mikrog" />
              </coding>
              <coding>
                <system value="http://www.whocc.no/atc_ddd_index/" />
                <code value="G03AA07" />
              </coding>
            </code>
            <manufacturer />
          </Medication>
        </contained>
        <extension url="http://helse-nord.no/FHIR/profiles/Extension.MedicationStatementDrugUse">
          <valueCoding>
            <system value="2.16.578.1.12.4.1.1.9101" />
            <code value="1" />
            <display value="Fast" />
          </valueCoding>
        </extension>
        <identifier>
          <system value="http://hl7.no/FHIR/Identifiers/ExternalIdentifier" />
          <value value="79c5a50b-913e-4813-836c-ef2ce189d54c" />
        </identifier>
        <status value="active" />
        <medicationReference>
          <reference value="#73172651-d9c6-4020-bd08-72fabac82008" />
        </medicationReference>
        <effectivePeriod>
          <start value="0001-01-01" />
        </effectivePeriod>
        <dateAsserted value="0001-01-01" />
        <subject>
          <reference value="Patient/12057900499" />
        </subject>
        <taken value="na" />
        <dosage>
          <text value="Anonymisert" />
        </dosage>
      </MedicationStatement>
    </resource>
  </entry>
  <entry>
    <resource>
      <Patient>
        <id value="12057900499" />
        <meta>
          <profile value="http://helse-nord.no/FHIR/profiles/Individuals.Patient/Patient" />
        </meta>
        <contained>
          <Organization>
            <id value="ORG6581333" />
            <meta>
              <profile value="http://helse-nord.no/FHIR/profiles/Entities.Organization/Organization" />
            </meta>
            <identifier>
              <system value="urn:oid:2.16.578.1.12.4.1.4.101" />
              <value value="983974899" />
            </identifier>
            <active value="true" />
            <name value="Universitetssykehuset Nord-Norge Hf" />
            <address>
              <use value="work" />
              <line value="ANONYMISERT ADRESSE" />
              <city value="Hammerfest" />
              <postalCode value="9600" />
            </address>
          </Organization>
        </contained>
        <contained>
          <Organization>
            <id value="ORG1" />
            <meta>
              <profile value="http://helse-nord.no/FHIR/profiles/Entities.Organization/Organization" />
            </meta>
            <identifier>
              <system value="urn:oid:2.16.578.1.12.4.1.4.101" />
              <value value="983974929" />
            </identifier>
            <active value="true" />
            <name value="Helgelandssykehuset Hf" />
            <address>
              <use value="work" />
              <line value="POSTBOKS 601" />
              <city value="Mo I Rana" />
              <postalCode value="8607" />
            </address>
          </Organization>
        </contained>
        <contained>
          <Organization>
            <id value="ORG5248538" />
            <meta>
              <profile value="http://helse-nord.no/FHIR/profiles/Entities.Organization/Organization" />
            </meta>
            <identifier>
              <system value="urn:oid:2.16.578.1.12.4.1.4.101" />
              <value value="983974880" />
            </identifier>
            <active value="true" />
            <name value="Finnmarkssykehuset Hf" />
            <address>
              <use value="work" />
              <line value="SYKEHUSVEIEN 35" />
              <city value="Hammerfest" />
              <postalCode value="9615" />
            </address>
          </Organization>
        </contained>
        <identifier>
          <use value="official" />
          <system value="urn:oid:2.16.578.1.12.4.1.4.1" />
          <value value="12057900499" />
        </identifier>
        <identifier>
          <use value="secondary" />
          <value value="10744509" />
        </identifier>
        <active value="true" />
        <name>
          <use value="official" />
          <text value="Telokk, Gry Irene" />
          <family value="Telokk" />
          <given value="Gry Irene" />
        </name>
        <gender value="female" />
        <birthDate value="1979-05-12" />
        <address>
          <use value="home" />
          <line value="Prinsens Gt 666" />
          <city value="Harstad" />
          <state value="Harstad" />
          <postalCode value="9402" />
          <country value="Norge" />
        </address>
        <contact>
          <extension url="http://helsenord.no/fhir/extensions/ContactIdentifier">
            <valueCodeableConcept>
              <coding>
                <system value="urn:oid:1.3.6.1.4.1.9038.51" />
                <code value="AA11A" />
              </coding>
            </valueCodeableConcept>
          </extension>
          <relationship>
            <coding>
              <system value="urn:oid:2.16.578.1.12.4.1.1.9034" />
              <code value="KO" />
              <display value="Koordinator" />
            </coding>
          </relationship>
          <name>
            <use value="official" />
            <text value="Aas, Edel Annie" />
            <family value="Aas" />
            <given value="Edel Annie" />
          </name>
          <telecom>
            <system value="phone" />
            <value value="15107" />
          </telecom>
          <organization>
            <reference value="#ORG6581333" />
          </organization>
          <period>
            <start value="2013-03-13T00:00:00" />
            <end value="2013-03-15T00:00:00" />
          </period>
        </contact>
        <contact>
          <extension url="http://helsenord.no/fhir/extensions/ContactIdentifier">
            <valueCodeableConcept>
              <coding>
                <system value="urn:oid:1.3.6.1.4.1.9038.51" />
                <code value="VELHA" />
              </coding>
            </valueCodeableConcept>
          </extension>
          <relationship>
            <coding>
              <system value="urn:oid:2.16.578.1.12.4.1.1.9034" />
              <code value="JA" />
              <display value="Journalansvarlig" />
            </coding>
          </relationship>
          <name>
            <use value="official" />
            <text value="Hansen, Liv Margrete" />
            <family value="Hansen" />
            <given value="Liv Margrete" />
          </name>
          <organization>
            <reference value="#ORG1" />
          </organization>
          <period>
            <start value="2015-04-01T00:00:00" />
          </period>
        </contact>
        <contact>
          <extension url="http://helsenord.no/fhir/extensions/ContactIdentifier">
            <valueCodeableConcept>
              <coding>
                <system value="urn:oid:1.3.6.1.4.1.9038.51" />
                <code value="VELHA" />
              </coding>
            </valueCodeableConcept>
          </extension>
          <relationship>
            <coding>
              <system value="urn:oid:2.16.578.1.12.4.1.1.9034" />
              <code value="JA" />
              <display value="Journalansvarlig" />
            </coding>
          </relationship>
          <name>
            <use value="official" />
            <text value="Hansen, Liv Margrete" />
            <family value="Hansen" />
            <given value="Liv Margrete" />
          </name>
          <organization>
            <reference value="#ORG1" />
          </organization>
          <period>
            <start value="2014-01-01T00:00:00" />
            <end value="2014-12-31T00:00:00" />
          </period>
        </contact>
        <contact>
          <extension url="http://helsenord.no/fhir/extensions/ContactIdentifier">
            <valueCodeableConcept>
              <coding>
                <system value="urn:oid:1.3.6.1.4.1.9038.51" />
                <code value="TH88C" />
              </coding>
            </valueCodeableConcept>
          </extension>
          <relationship>
            <coding>
              <system value="urn:oid:2.16.578.1.12.4.1.1.9034" />
              <code value="JA" />
              <display value="Journalansvarlig" />
            </coding>
          </relationship>
          <name>
            <use value="official" />
            <text value="Thorsby, Camilla Dyrnes" />
            <family value="Thorsby" />
            <given value="Camilla Dyrnes" />
          </name>
          <organization>
            <reference value="#ORG5248538" />
          </organization>
          <period>
            <start value="2014-10-01T00:00:00" />
            <end value="2014-10-22T00:00:00" />
          </period>
        </contact>
        <contact>
          <extension url="http://helsenord.no/fhir/extensions/ContactIdentifier">
            <valueCodeableConcept>
              <coding>
                <system value="urn:oid:1.3.6.1.4.1.9038.51" />
                <code value="HEKRAN" />
              </coding>
            </valueCodeableConcept>
          </extension>
          <relationship>
            <coding>
              <system value="urn:oid:2.16.578.1.12.4.1.1.9034" />
              <code value="KO" />
              <display value="Koordinator" />
            </coding>
          </relationship>
          <name>
            <use value="official" />
            <text value="Ekrem, Anne-Lise" />
            <family value="Ekrem" />
            <given value="Anne-Lise" />
          </name>
          <telecom>
            <system value="phone" />
            <value value="78421199" />
          </telecom>
          <organization>
            <reference value="#ORG5248538" />
          </organization>
          <period>
            <start value="2015-01-29T00:00:00" />
            <end value="2015-01-30T00:00:00" />
          </period>
        </contact>
        <contact>
          <extension url="http://helsenord.no/fhir/extensions/ContactIdentifier">
            <valueCodeableConcept>
              <coding>
                <system value="urn:oid:1.3.6.1.4.1.9038.51" />
                <code value="KHALNP" />
              </coding>
            </valueCodeableConcept>
          </extension>
          <relationship>
            <coding>
              <system value="urn:oid:2.16.578.1.12.4.1.1.9034" />
              <code value="JA" />
              <display value="Journalansvarlig" />
            </coding>
          </relationship>
          <name>
            <use value="official" />
            <text value="Hallonen, Nils-Petter" />
            <family value="Hallonen" />
            <given value="Nils-Petter" />
          </name>
          <telecom>
            <system value="phone" />
            <value value="3322" />
          </telecom>
          <organization>
            <reference value="#ORG5248538" />
          </organization>
          <period>
            <start value="2015-01-22T00:00:00" />
            <end value="2015-01-23T00:00:00" />
          </period>
        </contact>
        <contact>
          <extension url="http://helsenord.no/fhir/extensions/ContactIdentifier">
            <valueCodeableConcept>
              <coding>
                <system value="urn:oid:1.3.6.1.4.1.9038.51" />
                <code value="LMK" />
              </coding>
            </valueCodeableConcept>
          </extension>
          <relationship>
            <coding>
              <system value="urn:oid:2.16.578.1.12.4.1.1.9034" />
              <code value="KO" />
              <display value="Koordinator" />
            </coding>
          </relationship>
          <name>
            <use value="official" />
            <text value="Karlsen, Lars Morgan" />
            <family value="Karlsen" />
            <given value="Lars Morgan" />
          </name>
          <organization>
            <reference value="#ORG1" />
          </organization>
          <period>
            <start value="2012-05-09T00:00:00" />
          </period>
        </contact>
        <contact>
          <extension url="http://helsenord.no/fhir/extensions/ContactIdentifier">
            <valueCodeableConcept>
              <coding>
                <system value="urn:oid:1.3.6.1.4.1.9038.51" />
                <code value="KFLU" />
              </coding>
            </valueCodeableConcept>
          </extension>
          <relationship>
            <coding>
              <system value="urn:oid:2.16.578.1.12.4.1.1.9034" />
              <code value="JA" />
              <display value="Journalansvarlig" />
            </coding>
          </relationship>
          <name>
            <use value="official" />
            <text value="Flø, Kåre" />
            <family value="Flø" />
            <given value="Kåre" />
          </name>
          <organization>
            <reference value="#ORG6581333" />
          </organization>
          <period>
            <start value="2016-10-20T00:00:00" />
          </period>
        </contact>
        <contact>
          <extension url="http://helsenord.no/fhir/extensions/ContactIdentifier">
            <valueCodeableConcept>
              <coding>
                <system value="urn:oid:1.3.6.1.4.1.9038.51" />
                <code value="OV01E" />
              </coding>
            </valueCodeableConcept>
          </extension>
          <relationship>
            <coding>
              <system value="urn:oid:2.16.578.1.12.4.1.1.9034" />
              <code value="JA" />
              <display value="Journalansvarlig" />
            </coding>
          </relationship>
          <name>
            <use value="official" />
            <text value="Øverland, Eila Iren" />
            <family value="Øverland" />
            <given value="Eila Iren" />
          </name>
          <organization>
            <reference value="#ORG6581333" />
          </organization>
          <period>
            <start value="2015-06-01T00:00:00" />
          </period>
        </contact>
        <contact>
          <extension url="http://helsenord.no/fhir/extensions/ContactIdentifier">
            <valueCodeableConcept>
              <coding>
                <system value="urn:oid:1.3.6.1.4.1.9038.51" />
                <code value="JRANIL" />
              </coding>
            </valueCodeableConcept>
          </extension>
          <relationship>
            <coding>
              <system value="urn:oid:2.16.578.1.12.4.1.1.9034" />
              <code value="JA" />
              <display value="Journalansvarlig" />
            </coding>
          </relationship>
          <name>
            <use value="official" />
            <text value="Nilsen, Ragnhild Hanne Margareth" />
            <family value="Nilsen" />
            <given value="Ragnhild Hanne Margareth" />
          </name>
          <organization>
            <reference value="#ORG5248538" />
          </organization>
          <period>
            <start value="2015-09-29T00:00:00" />
          </period>
        </contact>
        <contact>
          <extension url="http://helsenord.no/fhir/extensions/ContactIdentifier">
            <valueCodeableConcept>
              <coding>
                <system value="urn:oid:1.3.6.1.4.1.9038.51" />
                <code value="ASEHSA" />
              </coding>
            </valueCodeableConcept>
          </extension>
          <relationship>
            <coding>
              <system value="urn:oid:2.16.578.1.12.4.1.1.9034" />
              <code value="IA" />
              <display value="Informasjonsansvarlig" />
            </coding>
          </relationship>
          <name>
            <use value="official" />
            <text value="Sehmisch, Saskia" />
            <family value="Sehmisch" />
            <given value="Saskia" />
          </name>
          <organization>
            <reference value="#ORG5248538" />
          </organization>
          <period>
            <start value="2015-09-29T00:00:00" />
          </period>
        </contact>
        <contact>
          <extension url="http://helsenord.no/fhir/extensions/ContactIdentifier">
            <valueCodeableConcept>
              <coding>
                <system value="urn:oid:1.3.6.1.4.1.9038.51" />
                <code value="HMÜ01F" />
              </coding>
            </valueCodeableConcept>
          </extension>
          <relationship>
            <coding>
              <system value="urn:oid:2.16.578.1.12.4.1.1.9034" />
              <code value="KO" />
              <display value="Koordinator" />
            </coding>
          </relationship>
          <name>
            <use value="official" />
            <text value="Mürer, Fredrik Andreas" />
            <family value="Mürer" />
            <given value="Fredrik Andreas" />
          </name>
          <organization>
            <reference value="#ORG1" />
          </organization>
          <period>
            <start value="2016-08-28T00:00:00" />
          </period>
        </contact>
        <contact>
          <extension url="http://helsenord.no/fhir/extensions/ContactIdentifier">
            <valueCodeableConcept>
              <coding>
                <system value="urn:oid:1.3.6.1.4.1.9038.51" />
                <code value="SASSJTEST" />
              </coding>
            </valueCodeableConcept>
          </extension>
          <relationship>
            <coding>
              <system value="urn:oid:2.16.578.1.12.4.1.1.9034" />
              <code value="KO" />
              <display value="Koordinator" />
            </coding>
          </relationship>
          <name>
            <use value="official" />
            <text value="Tester, Test" />
            <family value="Tester" />
            <given value="Test" />
          </name>
          <organization>
            <reference value="#ORG1" />
          </organization>
          <period>
            <start value="2015-12-11T00:00:00" />
          </period>
        </contact>
        <contact>
          <extension url="http://helsenord.no/fhir/extensions/ContactIdentifier">
            <valueCodeableConcept>
              <coding>
                <system value="urn:oid:1.3.6.1.4.1.9038.51" />
                <code value="RAKRHE" />
              </coding>
            </valueCodeableConcept>
          </extension>
          <relationship>
            <coding>
              <system value="urn:oid:2.16.578.1.12.4.1.1.9034" />
              <code value="PAB" />
              <display value="Pasientansvarlig Behandler" />
            </coding>
          </relationship>
          <name>
            <use value="official" />
            <text value="Hellesvik, Kristine" />
            <family value="Hellesvik" />
            <given value="Kristine" />
          </name>
          <organization>
            <reference value="#ORG1" />
          </organization>
          <period>
            <start value="2015-12-11T00:00:00" />
          </period>
        </contact>
      </Patient>
    </resource>
  </entry>
</Bundle>